Folder: PX4_Folllower_Mode

Note: README.md
# PX4_Folllower_Mode_data
log_0_2023-8-8-17-00-07.ulg : UAV0
log_3_2023-8-8-17-00-19.ulg : UAV1

File: log_0_2023-8-8-17-00-07_battery_status_0.csv
timestamp,voltage_v,voltage_filtered_v,current_a,current_filtered_a,current_average_a,discharged_mah,remaining,scale,time_remaining_s,temperature,voltage_cell_v[0],voltage_cell_v[1],voltage_cell_v[2],voltage_cell_v[3],voltage_cell_v[4],voltage_cell_v[5],voltage_cell_v[6],voltage_cell_v[7],voltage_cell_v[8],voltage_cell_v[9],voltage_cell_v[10],voltage_cell_v[11],voltage_cell_v[12],voltage_cell_v[13],max_cell_voltage_delta,custom_faults,average_power,available_energy,full_charge_capacity_wh,remaining_capacity_wh,design_capacity,nominal_voltage,capacity,cycle_count,average_time_to_empty,serial_number,manufacture_date,state_of_health,max_error,interface_error,faults,average_time_to_full,over_discharge_count,connected,cell_count,source,priority,id,is_powering_off,is_required,warning,mode
824000,16.2,16.2,-1.0,-1.0,15.0,0.0,1.0,1.0,nan,nan,0.0,0.0,0.0,0.0,0.0,0.0,0.0,0.0,0.0,0.0,0.0,0.0,0.0,0.0,0.0,0,0.0,0.0,0.0,0.0,0.0,0.0,0,0,0,0,0,0,0,0,0,0,0,1,4,0,0,1,0,0,0,0
2824000,16.2,16.2,-1.0,-1.0,15.0,0.0,1.0,1.0,nan,nan,0.0,0.0,0.0,0.0,0.0,0.0,0.0,0.0,0.0,0.0,0.0,0.0,0.0,0.0,0.0,0,0.0,0.0,0.0,0.0,0.0,0.0,0,0,0,0,0,0,0,0,0,0,0,1,4,0,0,1,0,0,0,0
5024000,16.2,16.2,-1.0,-1.0,15.0,0.0,1.0,1.0,nan,nan,0.0,0.0,0.0,0.0,0.0,0.0,0.0,0.0,0.0,0.0,0.0,0.0,0.0,0.0,0.0,0,0.0,0.0,0.0,0.0,0.0,0.0,0,0,0,0,0,0,0,0,0,0,0,1,4,0,0,1,0,0,0,0
7224000,16.2,16.2,-1.0,-1.0,15.0,0.0,1.0,1.0,nan,nan,0.0,0.0,0.0,0.0,0.0,0.0,0.0,0.0,0.0,0.0,0.0,0.0,0.0,0.0,0.0,0,0.0,0.0,0.0,0.0,0.0,0.0,0,0,0,0,0,0,0,0,0,0,0,1,4,0,0,1,0,0,0,0
9424000,16.2,16.2,-1.0,-1.0,15.0,0.0,1.0,1.0,nan,nan,0.0,0.0,0.0,0.0,0.0,0.0,0.0,0.0,0.0,0.0,0.0,0.0,0.0,0.0,0.0,0,0.0,0.0,0.0,0.0,0.0,0.0,0,0,0,0,0,0,0,0,0,0,0,1,4,0,0,1,0,0,0,0
11624000,16.2,16.2,-1.0,-1.0,15.0,0.0,1.0,1.0,nan,nan,0.0,0.0,0.0,0.0,0.0,0.0,0.0,0.0,0.0,0.0,0.0,0.0,0.0,0.0,0.0,0,0.0,0.0,0.0,0.0,0.0,0.0,0,0,0,0,0,0,0,0,0,0,0,1,4,0,0,1,0,0,0,0
13824000,16.2,16.2,-1.0,-1.0,15.0,0.0,1.0,1.0,nan,nan,0.0,0.0,0.0,0.0,0.0,0.0,0.0,0.0,0.0,0.0,0.0,0.0,0.0,0.0,0.0,0,0.0,0.0,0.0,0.0,0.0,0.0,0,0,0,0,0,0,0,0,0,0,0,1,4,0,0,1,0,0,0,0
16024000,16.2,16.2,-1.0,-1.0,15.0,0.0,1.0,1.0,nan,nan,0.0,0.0,0.0,0.0,0.0,0.0,0.0,0.0,0.0,0.0,0.0,0.0,0.0,0.0,0.0,0,0.0,0.0,0.0,0.0,0.0,0.0,0,0,0,0,0,0,0,0,0,0,0,1,4,0,0,1,0,0,0,0
18224000,16.2,16.2,-1.0,-1.0,15.0,0.0,1.0,1.0,nan,nan,0.0,0.0,0.0,0.0,0.0,0.0,0.0,0.0,0.0,0.0,0.0,0.0,0.0,0.0,0.0,0,0.0,0.0,0.0,0.0,0.0,0.0,0,0,0,0,0,0,0,0,0,0,0,1,4,0,0,1,0,0,0,0
20424000,16.2,16.2,-1.0,-1.0,15.0,0.0,1.0,1.0,nan,nan,0.0,0.0,0.0,0.0,0.0,0.0,0.0,0.0,0.0,0.0,0.0,0.0,0.0,0.0,0.0,0,0.0,0.0,0.0,0.0,0.0,0.0,0,0,0,0,0,0,0,0,0,0,0,1,4,0,0,1,0,0,0,0
22624000,16.2,16.2,-1.0,-1.0,15.0,0.0,1.0,1.0,nan,nan,0.0,0.0,0.0,0.0,0.0,0.0,0.0,0.0,0.0,0.0,0.0,0.0,0.0,0.0,0.0,0,0.0,0.0,0.0,0.0,0.0,0.0,0,0,0,0,0,0,0,0,0,0,0,1,4,0,0,1,0,0,0,0
24824000,16.2,16.2,-1.0,-1.0,15.0,0.0,1.0,1.0,nan,nan,0.0,0.0,0.0,0.0,0.0,0.0,0.0,0.0,0.0,0.0,0.0,0.0,0.0,0.0,0.0,0,0.0,0.0,0.0,0.0,0.0,0.0,0,0,0,0,0,0,0,0,0,0,0,1,4,0,0,1,0,0,0,0
27024000,16.2,16.2,-1.0,-1.0,15.0,0.0,1.0,1.0,nan,nan,0.0,0.0,0.0,0.0,0.0,0.0,0.0,0.0,0.0,0.0,0.0,0.0,0.0,0.0,0.0,0,0.0,0.0,0.0,0.0,0.0,0.0,0,0,0,0,0,0,0,0,0,0,0,1,4,0,0,1,0,0,0,0
29224000,16.2,16.2,-1.0,-1.0,15.0,0.0,1.0,1.0,nan,nan,0.0,0.0,0.0,0.0,0.0,0.0,0.0,0.0,0.0,0.0,0.0,0.0,0.0,0.0,0.0,0,0.0,0.0,0.0,0.0,0.0,0.0,0,0,0,0,0,0,0,0,0,0,0,1,4,0,0,1,0,0,0,0
31424000,16.2,16.2,-1.0,-1.0,15.0,0.0,1.0,1.0,nan,nan,0.0,0.0,0.0,0.0,0.0,0.0,0.0,0.0,0.0,0.0,0.0,0.0,0.0,0.0,0.0,0,0.0,0.0,0.0,0.0,0.0,0.0,0,0,0,0,0,0,0,0,0,0,0,1,4,0,0,1,0,0,0,0
33624000,16.2,16.2,-1.0,-1.0,15.0,0.0,1.0,1.0,nan,nan,0.0,0.0,0.0,0.0,0.0,0.0,0.0,0.0,0.0,0.0,0.0,0.0,0.0,0.0,0.0,0,0.0,0.0,0.0,0.0,0.0,0.0,0,0,0,0,0,0,0,0,0,0,0,1,4,0,0,1,0,0,0,0
35824000,16.2,16.2,-1.0,-1.0,15.0,0.0,1.0,1.0,nan,nan,0.0,0.0,0.0,0.0,0.0,0.0,0.0,0.0,0.0,0.0,0.0,0.0,0.0,0.0,0.0,0,0.0,0.0,0.0,0.0,0.0,0.0,0,0,0,0,0,0,0,0,0,0,0,1,4,0,0,1,0,0,0,0
38024000,16.2,16.2,-1.0,-1.0,15.0,0.0,1.0,1.0,nan,nan,0.0,0.0,0.0,0.0,0.0,0.0,0.0,0.0,0.0,0.0,0.0,0.0,0.0,0.0,0.0,0,0.0,0.0,0.0,0.0,0.0,0.0,0,0,0,0,0,0,0,0,0,0,0,1,4,0,0,1,0,0,0,0
40224000,16.1482,16.1728,-1.0,-1.0,14.4899,0.0,1.0,1.0,nan,nan,0.0,0.0,0.0,0.0,0.0,0.0,0.0,0.0,0.0,0.0,0.0,0.0,0.0,0.0,0.0,0,0.0,0.0,0.0,0.0,0.0,0.0,0,0,0,0,0,0,0,0,0,0,0,1,4,0,0,1,0,0,0,0
42424000,16.0822,16.1115,-1.0,-1.0,13.8662,0.0,1.0,1.0,nan,nan,0.0,0.0,0.0,0.0,0.0,0.0,0.0,0.0,0.0,0.0,0.0,0.0,0.0,0.0,0.0,0,0.0,0.0,0.0,0.0,0.0,0.0,0,0,0,0,0,0,0,0,0,0,0,1,4,0,0,1,0,0,0,0
44624000,16.0162,16.0461,-1.0,-1.0,13.26931,0.0,1.0,1.0,nan,nan,0.0,0.0,0.0,0.0,0.0,0.0,0.0,0.0,0.0,0.0,0.0,0.0,0.0,0.0,0.0,0,0.0,0.0,0.0,0.0,0.0,0.0,0,0,0,0,0,0,0,0,0,0,0,1,4,0,0,1,0,0,0,0
46824000,15.9502,15.9801,-1.0,-1.0,12.6981,0.0,1.0,1.0,nan,nan,0.0,0.0,0.0,0.0,0.0,0.0,0.0,0.0,0.0,0.0,0.0,0.0,0.0,0.0,0.0,0,0.0,0.0,0.0,0.0,0.0,0.0,0,0,0,0,0,0,0,0,0,0,0,1,4,0,0,1,0,0,0,0
49024000,15.8842,15.9142,-1.0,-1.0,12.1515,0.0,0.998123,1.00021,nan,nan,0.0,0.0,0.0,0.0,0.0,0.0,0.0,0.0,0.0,0.0,0.0,0.0,0.0,0.0,0.0,0,0.0,0.0,0.0,0.0,0.0,0.0,0,0,0,0,0,0,0,0,0,0,0,1,4,0,0,1,0,0,0,0
51224000,15.8182,15.8482,-1.0,-1.0,11.6285,0.0,0.9616537,1.00428,nan,nan,0.0,0.0,0.0,0.0,0.0,0.0,0.0,0.0,0.0,0.0,0.0,0.0,0.0,0.0,0.0,0,0.0,0.0,0.0,0.0,0.0,0.0,0,0,0,0,0,0,0,0,0,0,0,1,4,0,0,1,0,0,0,0
53424000,15.7522,15.7822,-1.0,-1.0,11.1279,0.0,0.9255409,1.00834,nan,nan,0.0,0.0,0.0,0.0,0.0,0.0,0.0,0.0,0.0,0.0,0.0,0.0,0.0,0.0,0.0,0,0.0,0.0,0.0,0.0,0.0,0.0,0,0,0,0,0,0,0,0,0,0,0,1,4,0,0,1,0,0,0,0
55624000,15.6862,15.7162,-1.0,-1.0,10.6489,0.0,0.8882961,1.01257,nan,nan,0.0,0.0,0.0,0.0,0.0,0.0,0.0,0.0,0.0,0.0,0.0,0.0,0.0,0.0,0.0,0,0.0,0.0,0.0,0.0,0.0,0.0,0,0,0,0,0,0,0,0,0,0,0,1,4,0,0,1,0,0,0,0
57824000,15.6202,15.6502,-1.0,-1.0,10.1906,0.0,0.851903,1.01673,nan,nan,0.0,0.0,0.0,0.0,0.0,0.0,0.0,0.0,0.0,0.0,0.0,0.0,0.0,0.0,0.0,0,0.0,0.0,0.0,0.0,0.0,0.0,0,0,0,0,0,0,0,0,0,0,0,1,4,0,0,1,0,0,0,0
60024000,15.5542,15.5842,-1.0,-1.0,9.751905,0.0,0.815084,1.02098,nan,nan,0.0,0.0,0.0,0.0,0.0,0.0,0.0,0.0,0.0,0.0,0.0,0.0,0.0,0.0,0.0,0,0.0,0.0,0.0,0.0,0.0,0.0,0,0,0,0,0,0,0,0,0,0,0,1,4,0,0,1,0,0,0,0
62224000,15.4882,15.5182,-1.0,-1.0,9.332137,0.0,0.7785187,1.02523,nan,nan,0.0,0.0,0.0,0.0,0.0,0.0,0.0,0.0,0.0,0.0,0.0,0.0,0.0,0.0,0.0,0,0.0,0.0,0.0,0.0,0.0,0.0,0,0,0,0,0,0,0,0,0,0,0,1,4,0,0,1,0,0,0,0
64424000,15.4222,15.45219,-1.0,-1.0,8.93044,0.0,0.7414894,1.02957,nan,nan,0.0,0.0,0.0,0.0,0.0,0.0,0.0,0.0,0.0,0.0,0.0,0.0,0.0,0.0,0.0,0,0.0,0.0,0.0,0.0,0.0,0.0,0,0,0,0,0,0,0,0,0,0,0,1,4,0,0,1,0,0,0,0
66624000,15.3562,15.3862,-1.0,-1.0,8.546032,0.0,0.705121,1.03387,nan,nan,0.0,0.0,0.0,0.0,0.0,0.0,0.0,0.0,0.0,0.0,0.0,0.0,0.0,0.0,0.0,0,0.0,0.0,0.0,0.0,0.0,0.0,0,0,0,0,0,0,0,0,0,0,0,1,4,0,0,1,0,0,0,0
68824000,15.3,15.3217,-1.0,-1.0,8.178171,0.0,0.669024,1.03818,nan,nan,0.0,0.0,0.0,0.0,0.0,0.0,0.0,0.0,0.0,0.0,0.0,0.0,0.0,0.0,0.0,0,0.0,0.0,0.0,0.0,0.0,0.0,0,0,0,0,0,0,0,0,0,0,0,1,4,0,0,1,0,0,0,0
71024000,15.3,15.3025,-1.0,-1.0,7.826145,0.0,0.6585798,1.03943,nan,nan,0.0,0.0,0.0,0.0,0.0,0.0,0.0,0.0,0.0,0.0,0.0,0.0,0.0,0.0,0.0,0,0.0,0.0,0.0,0.0,0.0,0.0,0,0,0,0,0,0,0,0,0,0,0,1,4,0,0,1,0,0,0,0
73224000,15.3,15.3003,-1.0,-1.0,7.48927,0.0,0.6570997,1.03961,nan,nan,0.0,0.0,0.0,0.0,0.0,0.0,0.0,0.0,0.0,0.0,0.0,0.0,0.0,0.0,0.0,0,0.0,0.0,0.0,0.0,0.0,0.0,0,0,0,0,0,0,0,0,0,0,0,1,4,0,0,1,0,0,0,0
75424000,15.3,15.3001,-1.0,-1.0,7.1669,0.0,0.6573858,1.03957,nan,nan,0.0,0.0,0.0,0.0,0.0,0.0,0.0,0.0,0.0,0.0,0.0,0.0,0.0,0.0,0.0,0,0.0,0.0,0.0,0.0,0.0,0.0,0,0,0,0,0,0,0,0,0,0,0,1,4,0,0,1,0,0,0,0
77624000,15.3,15.3001,-1.0,-1.0,6.858402,0.0,0.6573534,1.03958,nan,nan,0.0,0.0,0.0,0.0,0.0,0.0,0.0,0.0,0.0,0.0,0.0,0.0,0.0,0.0,0.0,0,0.0,0.0,0.0,0.0,0.0,0.0,0,0,0,0,0,0,0,0,0,0,0,1,4,0,0,1,0,0,0,0
79824000,15.3,15.3001,-1.0,-1.0,6.56318,0.0,0.6570177,1.039619,nan,nan,0.0,0.0,0.0,0.0,0.0,0.0,0.0,0.0,0.0,0.0,0.0,0.0,0.0,0.0,0.0,0,0.0,0.0,0.0,0.0,0.0,0.0,0,0,0,0,0,0,0,0,0,0,0,1,4,0,0,1,0,0,0,0
82024000,15.3,15.3001,-1.0,-1.0,6.28067,0.0,0.6572,1.0396,nan,nan,0.0,0.0,0.0,0.0,0.0,0.0,0.0,0.0,0.0,0.0,0.0,0.0,0.0,0.0,0.0,0,0.0,0.0,0.0,0.0,0.0,0.0,0,0,0,0,0,0,0,0,0,0,0,1,4,0,0,1,0,0,0,0
84224000,15.3,15.3001,-1.0,-1.0,6.01033,0.0,0.6572895,1.03959,nan,nan,0.0,0.0,0.0,0.0,0.0,0.0,0.0,0.0,0.0,0.0,0.0,0.0,0.0,0.0,0.0,0,0.0,0.0,0.0,0.0,0.0,0.0,0,0,0,0,0,0,0,0,0,0,0,1,4,0,0,1,0,0,0,0
86424000,15.3,15.3001,-1.0,-1.0,5.751608,0.0,0.6574955,1.03956,nan,nan,0.0,0.0,0.0,0.0,0.0,0.0,0.0,0.0,0.0,0.0,0.0,0.0,0.0,0.0,0.0,0,0.0,0.0,0.0,0.0,0.0,0.0,0,0,0,0,0,0,0,0,0,0,0,1,4,0,0,1,0,0,0,0
88624000,15.3,15.3001,-1.0,-1.0,5.50403,0.0,0.6570177,1.039619,nan,nan,0.0,0.0,0.0,0.0,0.0,0.0,0.0,0.0,0.0,0.0,0.0,0.0,0.0,0.0,0.0,0,0.0,0.0,0.0,0.0,0.0,0.0,0,0,0,0,0,0,0,0,0,0,0,1,4,0,0,1,0,0,0,0
90824000,15.3,15.3001,-1.0,-1.0,5.26711,0.0,0.657251,1.039591,nan,nan,0.0,0.0,0.0,0.0,0.0,0.0,0.0,0.0,0.0,0.0,0.0,0.0,0.0,0.0,0.0,0,0.0,0.0,0.0,0.0,0.0,0.0,0,0,0,0,0,0,0,0,0,0,0,1,4,0,0,1,0,0,0,0
93024000,15.3,15.3001,-1.0,-1.0,5.04039,0.0,0.657276,1.039588,nan,nan,0.0,0.0,0.0,0.0,0.0,0.0,0.0,0.0,0.0,0.0,0.0,0.0,0.0,0.0,0.0,0,0.0,0.0,0.0,0.0,0.0,0.0,0,0,0,0,0,0,0,0,0,0,0,1,4,0,0,1,0,0,0,0
95224000,15.3,15.3001,-1.0,-1.0,4.82343,0.0,0.657001,1.03962,nan,nan,0.0,0.0,0.0,0.0,0.0,0.0,0.0,0.0,0.0,0.0,0.0,0.0,0.0,0.0,0.0,0,0.0,0.0,0.0,0.0,0.0,0.0,0,0,0,0,0,0,0,0,0,0,0,1,4,0,0,1,0,0,0,0
97424000,15.3,15.3001,-1.0,-1.0,4.61581,0.0,0.6574173,1.039571,nan,nan,0.0,0.0,0.0,0.0,0.0,0.0,0.0,0.0,0.0,0.0,0.0,0.0,0.0,0.0,0.0,0,0.0,0.0,0.0,0.0,0.0,0.0,0,0,0,0,0,0,0,0,0,0,0,1,4,0,0,1,0,0,0,0
99624000,15.3,15.3001,-1.0,-1.0,4.41712,0.0,0.656123,1.03973,nan,nan,0.0,0.0,0.0,0.0,0.0,0.0,0.0,0.0,0.0,0.0,0.0,0.0,0.0,0.0,0.0,0,0.0,0.0,0.0,0.0,0.0,0.0,0,0,0,0,0,0,0,0,0,0,0,1,4,0,0,1,0,0,0,0
101824000,15.3,15.3001,-1.0,-1.0,4.226986,0.0,0.6599407,1.03927,nan,nan,0.0,0.0,0.0,0.0,0.0,0.0,0.0,0.0,0.0,0.0,0.0,0.0,0.0,0.0,0.0,0,0.0,0.0,0.0,0.0,0.0,0.0,0,0,0,0,0,0,0,0,0,0,0,1,4,0,0,1,0,0,0,0
104024000,15.3,15.3001,-1.0,-1.0,4.04504,0.0,0.500267,1.05879,nan,nan,0.0,0.0,0.0,0.0,0.0,0.0,0.0,0.0,0.0,0.0,0.0,0.0,0.0,0.0,0.0,0,0.0,0.0,0.0,0.0,0.0,0.0,0,0,0,0,0,0,0,0,0,0,0,1,4,0,0,1,0,0,0,0
106224000,16.2,15.5647,-1.0,-1.0,3.89733,0.0,0.6472912,1.04079,nan,nan,0.0,0.0,0.0,0.0,0.0,0.0,0.0,0.0,0.0,0.0,0.0,0.0,0.0,0.0,0.0,0,0.0,0.0,0.0,0.0,0.0,0.0,0,0,0,0,0,0,0,0,0,0,0,1,4,0,0,1,0,0,0,0
106824000,16.2,15.8503,-1.0,-1.0,3.89733,0.0,0.805943,1.02204,nan,nan,0.0,0.0,0.0,0.0,0.0,0.0,0.0,0.0,0.0,0.0,0.0,0.0,0.0,0.0,0.0,0,0.0,0.0,0.0,0.0,0.0,0.0,0,0,0,0,0,0,0,0,0,0,0,1,4,0,0,1,0,0,0,0